Folder: AM2540/G_Tensile_Test

Note: README.md
# AM2540
AM2540 Applied Mechanics Lab reports.

File: data.csv
extension(mm),force(N)
0,0
0.004493713,794.7763
0.003969193,1207.61
0.004974365,1578.28
0.006435394,1916.68
0.007053375,2261.51
0.009149551,2621.21
0.01010132,2992.58
0.009773254,3383.92
0.01063538,3791.71
0.01218414,4213.83
0.01290512,4654.33
0.0119381,5105
0.01106071,5568.09
0.007917404,6039.38
0.006284714,6522.27
0.008485794,7016.17
0.008062363,7521.79
0.008180618,8038.22
0.007844925,8562.96
0.01049995,9101.5
0.01069641,9649.16
0.0124321,10202.6
0.01447105,10765.3
0.01522064,11337
0.01525497,11913
0.01728058,12496.4
0.01903534,13087.5
0.0204258,13681.5
0.02179718,14283.6
0.02337837,14893.3
0.02493477,15509.5
0.0261898,16133.8
0.02847862,16761.2
0.03068352,17394.7
0.03362274,18032.3
0.03555489,18677.1
0.03763199,19324.4
0.04366302,16806.7
0.07458496,16639.9
0.123867,16627.8
0.1730614,16708
0.2226086,16600.4
0.2714443,16415.8
0.321455,16470.2
0.3722382,16404.7
0.4242611,16258.2
0.4662437,16109.8
0.4901371,16327.8
0.5131531,16793.2
0.5400963,17225.4
0.571682,17532.7
0.6047611,17802.1
0.6366234,18052.9
0.6682587,18295
0.6980896,18521.9
0.7302818,18735.6
0.7610683,18934.2
0.7908058,19118.8
0.8195152,19292.7
0.8480129,19459.9
0.8755131,19616.5
0.9050846,19769
0.9322701,19917.7
0.9591408,20061.6
0.9857025,20202.8
1.012997,20343.3
1.039873,20478.1
1.067894,20613.6
1.096575,20743.1
1.124659,20873.4
1.152718,20999.7
1.183147,21121.5
1.211842,21241.9
1.23807,21359.9
1.267832,21475
1.297844,21589.2
1.326645,21700.8
1.355831,21806.9
1.386915,21914.4
1.416418,22018.4
1.448318,22118.5
1.476084,22217.8
1.507418,22313.1
1.53978,22406
1.570063,22500.6
1.600134,22591.7
1.63262,22680.4
1.664576,22767.9
1.695755,22850.3
1.726767,22934.5
1.757523,23015.3
1.791151,23093.6
1.823809,23170.9
1.855753,23248.1
1.88796,23320.7
1.918877,23393.8
1.950871,23461.4
1.983927,23530
2.016222,23597.8
2.048656,23661.6
2.081005,23727.4
2.114775,23789.3
2.14851,23848.5
2.181427,23910
2.215038,23968.7
2.248615,24024
2.281927,24081.1
2.315374,24133.8
2.349623,24187.6
2.383444,24239.7
2.418745,24289.7
2.45109,24338.4
2.486441,24386.7
2.519764,24432.4
2.555077,24478.9
2.589127,24524
2.622421,24567.2
2.657795,24610.9
2.692234,24651.1
2.729404,24690.7
2.765373,24732.2
2.799557,24767.1
2.834377,24806.2
2.869751,24843.5
2.90559,24877
2.94088,24911.8
2.976326,24947.8
3.012825,24979.5
3.047756,25013.4
3.084171,25042.7
3.121368,25073.8
3.157375,25104.5
3.193851,25132.3
3.229443,25161
3.26894,25189.2
3.305359,25215
3.341099,25242.3
3.377495,25265.8
3.414639,25291.1
3.451996,25315.9
3.488056,25338.4
3.525051,25360.5
3.562695,25383.4
3.5994,25405.1
3.636772,25426.9
3.674717,25446.2
3.712883,25465.8
3.750626,25487
3.787975,25504.9
3.825893,25521.4
3.863735,25539.6
3.902477,25557.1
3.941063,25573.1
3.978828,25589.2
4.016773,25605.1
4.054104,25619.7
4.093544,25635.8
4.131752,25649.2
4.17065,25663.3
4.206524,25677
4.244774,25688.9
4.285496,25702.4
4.323982,25714
4.362316,25723.8
4.401505,25736.8
4.441124,25746.5
4.479374,25757.6
4.518452,25768.7
4.557739,25776.5
4.59866,25786.8
4.639893,25796.4
4.67881,25802.8
4.719624,25811.9
4.75948,25818.7
4.79969,25825.9
4.840996,25832.8
4.879814,25842
4.920059,25846.6
4.960529,25852.7
5.00042,25858.4
5.04213,25862.2
5.082718,25868.8
5.123238,25872.2
5.165421,25874.5
5.205307,25878.8
5.246117,25882.5
5.287685,25886.1
5.328636,25889.4
5.371571,25892.1
5.412506,25894.4
5.454578,25896.2
5.494911,25897.8
5.538177,25899.5
5.579845,25899.8
5.621998,25900.6
5.662701,25901.6
5.705353,25901.6
5.748116,25901.7
5.790245,25901.4
5.833374,25900.5
5.876514,25899.3
5.919807,25897.7
5.96172,25895.8
6.005062,25893.1
6.048634,25890
6.091709,25887.4
6.133232,25884
6.179024,25880.2
6.222946,25875.8
6.265831,25870.8
6.310246,25865.8
6.355362,25860
6.399467,25853.7
6.44297,25846.7
6.486965,25838.6
6.531685,25831.2
6.575855,25817.7
6.621136,25809.4
6.668022,25798.4
6.714375,25787.7
6.757915,25776.5
6.80373,25762.1
6.852203,25748.5
6.897808,25733
6.943913,25716.1
6.989185,25699.4
7.037357,25681.6
7.083775,25660.9
7.130039,25641.4
7.178093,25617.2
7.224728,25593.6
7.272873,25568.6
7.320587,25539.1
7.368874,25509.2
7.417568,25480.1
7.464973,25447.1
7.52198,25412.4
7.563847,25377.5
7.612011,25337.6
7.661198,25298.2
7.710052,25255.6
7.759396,25211.8
7.809368,25165.8
7.858437,25117.3
7.908386,25066.7
7.95842,25015.2
8.008221,24959.6
8.059822,24904.3
8.109673,24845.6
8.161617,24784.1
8.211372,24722.6
8.266197,24657.6
8.313656,24589.7
8.361179,24521.6
8.409306,24449.4
8.459438,24375
8.510548,24300.3
8.561863,24220.2
8.613346,24140.1
8.665501,24057.6
8.717728,23971
8.774109,23883.4
8.825829,23792.8
8.876564,23698.9
8.929325,23604
8.981178,23506.3
9.031868,23404.1
9.084183,23301.7
9.135891,23195.9
9.187798,23086.7
9.24057,22975.5
9.29266,22859.6
9.344681,22741.7
9.397591,22620.5
9.449844,22495
9.501549,22368.9
9.553692,22239
9.607334,22104.3
9.658447,21967.2
9.710793,21825.6
9.76379,21682.4
9.815762,21533.3
9.86869,21380.3
9.922165,21224
9.983444,21063
10.02859,20897.5
10.08234,20728.2
10.13492,20554.3
10.18831,20373
10.23958,20188.7
10.29553,19996.1
10.34938,19798.3
10.40219,19594.3
10.4571,19381.1
10.51061,19159.5
10.56364,18926.3
10.61341,18357.6